Ax,Ay,Az,Gx,Gy,Gz
0.03,-0.01,0.97,0.07,0.03,-0.03
0.03,0.00,0.97,0.07,0.03,-0.03
0.03,0.00,0.97,0.07,0.03,-0.03
0.03,0.00,0.98,0.07,0.03,-0.03
0.03,0.01,0.97,0.07,0.02,-0.03
0.03,-0.00,0.97,0.07,0.03,-0.03
0.03,0.00,0.98,0.07,0.03,-0.03
0.03,-0.00,0.97,0.07,0.03,-0.03
0.03,-0.00,0.98,0.07,0.03,-0.03
0.06,-0.02,0.94,0.07,0.02,-0.02
0.05,-0.01,0.94,0.07,0.02,-0.03
0.03,0.00,0.95,0.07,0.02,-0.03
0.03,0.01,0.95,0.07,0.02,-0.03
0.03,-0.00,0.96,0.07,0.03,-0.03
0.03,0.00,0.96,0.07,0.02,-0.03
0.03,-0.00,0.98,0.07,0.03,-0.03
0.03,-0.00,0.97,0.07,0.03,-0.03
0.03,0.00,0.98,0.07,0.03,-0.03
0.03,-0.00,0.98,0.07,0.03,-0.03
0.03,0.00,0.97,0.07,0.03,-0.03
0.03,0.00,0.97,0.07,0.03,-0.03
0.03,0.00,0.97,0.07,0.03,-0.03
0.03,-0.00,0.97,0.07,0.03,-0.03
0.03,-0.00,0.97,0.07,0.03,-0.03
0.03,0.00,0.97,0.07,0.03,-0.03
0.03,-0.00,0.98,0.07,0.03,-0.03
0.03,-0.00,0.98,0.07,0.02,-0.03
0.03,0.00,0.98,0.07,0.03,-0.03
0.03,0.00,0.97,0.07,0.03,-0.03
0.03,-0.00,0.97,0.07,0.03,-0.03
0.03,-0.00,0.98,0.07,0.03,-0.03
0.03,0.00,0.98,0.07,0.03,-0.03
0.03,0.00,0.98,0.07,0.03,-0.03
0.03,0.00,0.97,0.07,0.03,-0.03
0.03,0.00,0.97,0.07,0.02,-0.03
0.03,0.00,0.97,0.07,0.03,-0.03
0.03,-0.00,0.98,0.07,0.03,-0.03
0.03,0.00,0.97,0.07,0.03,-0.03
0.03,-0.00,0.97,0.07,0.02,-0.03
0.03,0.00,0.97,0.07,0.03,-0.03
0.03,0.00,0.97,0.07,0.03,-0.03
0.03,-0.00,0.97,0.07,0.02,-0.03
0.02,0.00,0.97,0.07,0.03,-0.03
0.03,0.00,0.97,0.07,0.02,-0.03
0.03,-0.00,0.98,0.07,0.03,-0.03
0.03,-0.00,0.98,0.07,0.03,-0.03
0.03,0.00,0.97,0.07,0.03,-0.03
0.02,-0.00,0.97,0.07,0.03,-0.03
0.03,-0.00,0.97,0.07,0.02,-0.03
0.03,-0.00,0.98,0.07,0.03,-0.03
0.02,0.00,0.98,0.07,0.03,-0.03
0.03,-0.00,0.97,0.07,0.03,-0.03
0.03,-0.00,0.97,0.07,0.03,-0.03
0.03,0.00,0.97,0.07,0.03,-0.03
0.03,-0.00,0.97,0.07,0.03,-0.03
0.02,0.00,0.98,0.07,0.03,-0.03
0.02,0.00,0.97,0.07,0.03,-0.03
0.03,-0.00,0.97,0.07,0.02,-0.03
0.03,0.00,0.97,0.07,0.02,-0.03
0.03,-0.00,0.98,0.07,0.03,-0.03
0.02,0.00,0.97,0.07,0.03,-0.03
0.03,0.00,0.97,0.07,0.03,-0.03
0.03,-0.00,0.97,0.07,0.03,-0.03
0.03,-0.00,0.97,0.07,0.02,-0.03
0.03,-0.00,0.97,0.07,0.03,-0.03
0.03,-0.00,0.97,0.07,0.03,-0.03
0.03,-0.00,0.98,0.07,0.02,-0.03
0.03,0.00,0.98,0.07,0.03,-0.03
0.03,0.00,0.97,0.07,0.03,-0.03
0.03,0.00,0.97,0.07,0.03,-0.03
0.03,0.00,0.97,0.07,0.03,-0.03
0.03,-0.00,0.98,0.07,0.03,-0.03
0.03,0.00,0.98,0.07,0.03,-0.03
0.03,-0.00,0.97,0.07,0.03,-0.03
0.03,0.00,0.98,0.07,0.03,-0.03
0.03,0.01,0.97,0.07,0.03,-0.03
0.02,-0.00,0.98,0.07,0.03,-0.03
0.03,-0.00,0.97,0.07,0.02,-0.03
0.03,-0.00,0.96,0.07,0.02,-0.03
0.03,-0.00,0.98,0.07,0.03,-0.03
0.03,0.00,0.97,0.07,0.02,-0.03
0.03,-0.00,0.98,0.07,0.02,-0.03
0.03,0.01,0.97,0.07,0.03,-0.03
0.03,0.01,0.97,0.07,0.02,-0.03
0.03,-0.00,0.98,0.07,0.03,-0.03
0.03,0.00,0.97,0.07,0.03,-0.03
0.02,0.00,0.98,0.07,0.02,-0.03
0.03,-0.00,0.97,0.07,0.03,-0.03
0.03,0.00,0.97,0.07,0.03,-0.03
0.02,0.00,0.97,0.07,0.02,-0.03
0.03,0.00,0.98,0.07,0.03,-0.03
0.03,-0.00,0.97,0.07,0.03,-0.03
0.03,-0.00,0.97,0.07,0.03,-0.03
0.03,0.00,0.97,0.07,0.02,-0.03
0.03,0.00,0.97,0.07,0.03,-0.03
0.03,0.00,0.97,0.07,0.03,-0.03
0.03,-0.00,0.97,0.07,0.03,-0.03
0.03,0.01,0.97,0.07,0.03,-0.03
0.03,-0.00,0.97,0.07,0.03,-0.03
0.02,0.00,0.98,0.07,0.03,-0.03
0.03,-0.00,0.98,0.07,0.03,-0.03
0.03,0.00,0.97,0.07,0.03,-0.03
0.03,-0.00,0.97,0.07,0.03,-0.03
0.03,-0.00,0.98,0.07,0.03,-0.03
0.03,0.00,0.98,0.07,0.03,-0.03
0.03,0.00,0.97,0.07,0.03,-0.03
0.03,-0.00,0.97,0.07,0.03,-0.03
0.03,-0.00,0.98,0.07,0.03,-0.03
0.03,-0.00,0.97,0.07,0.03,-0.03
0.03,-0.00,0.97,0.07,0.03,-0.03
0.03,0.00,0.97,0.07,0.03,-0.03
0.02,-0.00,0.98,0.07,0.03,-0.03
0.03,0.00,0.97,0.07,0.03,-0.03
0.03,-0.00,0.97,0.07,0.03,-0.03
0.03,-0.00,0.97,0.07,0.03,-0.03
0.03,-0.00,0.98,0.07,0.03,-0.03
0.03,0.00,0.97,0.07,0.02,-0.03
0.03,-0.00,0.97,0.07,0.02,-0.03
0.03,0.00,0.98,0.07,0.03,-0.03
0.02,-0.00,0.97,0.07,0.03,-0.03
0.03,0.00,0.97,0.07,0.02,-0.03
0.03,-0.00,0.97,0.07,0.02,-0.03
0.03,-0.00,0.98,0.07,0.02,-0.03
0.03,-0.00,0.97,0.07,0.03,-0.03
0.04,-0.00,0.97,0.07,0.03,-0.03
0.03,0.00,0.98,0.07,0.02,-0.03
0.03,-0.00,0.97,0.07,0.02,-0.03
0.02,0.00,0.96,0.07,0.03,-0.03
0.03,-0.00,0.97,0.07,0.03,-0.03
0.03,-0.00,0.97,0.07,0.03,-0.03
0.03,-0.00,0.98,0.07,0.03,-0.03
0.03,-0.00,0.97,0.07,0.02,-0.03
0.02,0.00,0.97,0.07,0.03,-0.03
0.03,0.00,0.98,0.07,0.03,-0.03
0.03,-0.00,0.98,0.07,0.02,-0.03
0.03,0.00,0.97,0.07,0.03,-0.03
0.03,-0.00,0.97,0.07,0.03,-0.03
0.03,0.00,0.97,0.07,0.03,-0.03
0.03,-0.00,0.97,0.07,0.03,-0.03
0.03,-0.00,0.97,0.07,0.03,-0.03
0.03,0.00,0.97,0.07,0.02,-0.03
0.03,0.00,0.97,0.07,0.03,-0.03
0.02,0.00,0.98,0.07,0.03,-0.03
0.03,-0.00,0.96,0.07,0.02,-0.03
0.03,0.00,0.97,0.07,0.03,-0.03
0.03,-0.00,0.97,0.07,0.02,-0.03
0.02,-0.00,0.98,0.07,0.03,-0.03
0.03,-0.00,0.96,0.07,0.03,-0.03
0.02,-0.00,1.00,0.07,0.03,-0.03
0.03,-0.00,0.97,0.07,0.03,-0.03
0.03,-0.00,0.97,0.07,0.02,-0.03
0.02,0.00,0.97,0.07,0.02,-0.03
0.03,-0.00,0.97,0.07,0.02,-0.03
0.03,-0.00,0.96,0.07,0.03,-0.03
0.03,0.01,0.96,0.07,0.02,-0.03
0.03,0.00,0.95,0.07,0.02,-0.03
0.02,0.01,0.98,0.07,0.02,-0.03
0.02,-0.01,0.97,0.07,0.03,-0.03
0.03,0.00,0.97,0.07,0.03,-0.03
0.03,-0.00,0.97,0.07,0.02,-0.03
0.02,0.00,0.97,0.07,0.03,-0.03
0.03,-0.00,0.97,0.07,0.03,-0.03
0.03,0.00,0.97,0.07,0.02,-0.03
0.03,0.00,0.97,0.07,0.03,-0.03
0.03,-0.00,0.97,0.07,0.02,-0.03
0.03,-0.00,0.97,0.07,0.03,-0.03
0.03,0.00,0.96,0.07,0.02,-0.03
0.03,0.00,0.97,0.07,0.03,-0.03
0.02,0.00,0.97,0.07,0.03,-0.03
0.03,-0.00,0.97,0.07,0.03,-0.03
0.03,0.00,0.98,0.07,0.03,-0.03
0.03,0.00,0.97,0.07,0.03,-0.03
0.03,-0.00,0.98,0.07,0.03,-0.03
0.03,0.00,0.96,0.07,0.03,-0.03
0.03,0.00,0.97,0.07,0.03,-0.03
0.03,0.00,0.97,0.07,0.02,-0.03
0.03,-0.00,0.97,0.07,0.03,-0.03
0.02,0.00,0.97,0.07,0.03,-0.03
0.03,-0.00,0.96,0.07,0.03,-0.03
0.03,0.00,0.98,0.07,0.02,-0.03
0.03,0.00,0.97,0.07,0.02,-0.03
0.03,-0.00,0.98,0.07,0.03,-0.03
0.03,0.00,0.98,0.07,0.03,-0.03
0.03,0.00,0.97,0.07,0.02,-0.03
0.03,-0.00,0.98,0.07,0.03,-0.03
0.03,0.00,0.98,0.07,0.03,-0.03
0.03,0.00,0.97,0.07,0.03,-0.03
0.02,0.00,0.98,0.07,0.03,-0.03
0.03,-0.00,0.98,0.07,0.03,-0.03
0.02,-0.00,0.97,0.07,0.03,-0.03
0.03,-0.00,0.98,0.07,0.02,-0.03
0.04,-0.00,0.97,0.07,0.03,-0.03
0.03,0.00,0.97,0.07,0.03,-0.03
0.02,0.00,0.97,0.07,0.03,-0.03
0.03,0.00,0.97,0.07,0.03,-0.03
0.03,0.00,0.98,0.07,0.03,-0.03
0.03,-0.00,0.97,0.07,0.03,-0.03
0.03,0.00,0.98,0.07,0.03,-0.03
0.03,0.00,0.98,0.07,0.02,-0.03
0.03,-0.00,0.98,0.07,0.03,-0.03
0.03,0.00,0.98,0.07,0.02,-0.03
0.02,0.00,0.97,0.07,0.03,-0.03
0.03,0.00,0.97,0.07,0.03,-0.03
0.03,-0.00,0.97,0.07,0.03,-0.03
0.03,-0.00,0.98,0.07,0.03,-0.03
0.03,0.00,0.97,0.07,0.02,-0.03
0.03,0.00,0.97,0.07,0.02,-0.03
0.03,0.00,0.98,0.07,0.03,-0.03
0.03,-0.01,0.97,0.07,0.02,-0.03
0.03,0.00,0.97,0.07,0.03,-0.03
0.03,-0.00,0.97,0.07,0.03,-0.03
0.03,0.00,0.97,0.07,0.03,-0.03
0.03,0.00,0.97,0.07,0.03,-0.03
0.02,0.00,0.97,0.07,0.03,-0.03
0.03,-0.00,0.98,0.07,0.03,-0.03
0.03,-0.00,0.97,0.07,0.03,-0.03
0.03,-0.00,0.98,0.07,0.03,-0.03
0.03,-0.00,0.97,0.07,0.03,-0.03
0.03,0.00,0.98,0.07,0.03,-0.03
0.02,0.00,0.97,0.07,0.02,-0.03
0.03,0.00,0.98,0.07,0.03,-0.03
0.03,0.00,0.97,0.07,0.03,-0.03
0.03,0.00,0.98,0.07,0.02,-0.03
0.03,0.00,0.97,0.07,0.03,-0.03
0.03,-0.00,0.97,0.07,0.03,-0.03
0.03,0.00,0.97,0.07,0.02,-0.03
0.03,0.00,0.97,0.07,0.03,-0.03
0.03,-0.00,0.97,0.07,0.03,-0.03
0.03,0.00,0.98,0.07,0.03,-0.03
0.03,0.00,0.98,0.07,0.03,-0.03
0.03,-0.00,0.97,0.07,0.03,-0.03
0.03,-0.00,0.97,0.07,0.03,-0.03
0.03,-0.00,0.97,0.07,0.03,-0.03
0.02,-0.01,0.98,0.07,0.03,-0.03
0.03,0.00,0.98,0.07,0.03,-0.03
0.03,-0.00,0.97,0.07,0.03,-0.03
0.03,-0.00,0.97,0.07,0.03,-0.03
0.03,0.00,0.97,0.07,0.03,-0.03
0.03,0.00,0.97,0.07,0.03,-0.03
0.03,0.00,0.98,0.07,0.03,-0.03
0.03,-0.00,0.97,0.07,0.03,-0.03
0.03,0.00,0.98,0.07,0.02,-0.03
0.03,-0.00,0.97,0.07,0.02,-0.03
0.03,0.00,0.98,0.07,0.03,-0.03
0.02,-0.00,0.98,0.07,0.03,-0.03
0.03,-0.00,0.97,0.07,0.03,-0.03
0.03,0.00,0.97,0.07,0.03,-0.03
0.03,-0.00,0.97,0.07,0.03,-0.03
0.03,0.00,0.97,0.07,0.03,-0.03
0.03,0.00,0.97,0.07,0.03,-0.03
0.02,0.00,0.98,0.07,0.03,-0.03
0.03,-0.00,0.98,0.07,0.03,-0.03
0.02,-0.00,0.97,0.07,0.02,-0.03
0.03,0.00,0.97,0.07,0.03,-0.03
0.03,-0.00,0.98,0.07,0.03,-0.03
0.02,0.00,0.97,0.07,0.03,-0.03
0.03,0.00,0.98,0.07,0.02,-0.03
0.03,-0.00,0.97,0.07,0.02,-0.03
0.03,-0.00,0.97,0.07,0.02,-0.03
0.03,-0.00,0.98,0.07,0.03,-0.03
0.03,0.00,0.97,0.07,0.02,-0.03
0.03,-0.00,0.97,0.07,0.03,-0.03
0.03,0.01,0.97,0.07,0.03,-0.03
0.03,-0.00,0.98,0.07,0.02,-0.03
0.03,0.00,0.97,0.07,0.03,-0.03
0.03,-0.00,0.98,0.07,0.03,-0.03
0.03,0.00,0.97,0.07,0.03,-0.03
0.03,0.00,0.98,0.07,0.03,-0.03
0.03,-0.00,0.97,0.07,0.02,-0.03
0.03,-0.00,0.97,0.07,0.03,-0.03
0.03,0.00,0.97,0.07,0.03,-0.03
0.03,0.00,0.98,0.07,0.02,-0.03
0.03,0.00,0.97,0.07,0.03,-0.03
0.03,-0.00,0.98,0.07,0.02,-0.03
0.03,0.00,0.97,0.07,0.03,-0.03
0.03,0.00,0.97,0.07,0.03,-0.03
0.03,0.00,0.97,0.07,0.03,-0.03
0.03,0.00,0.98,0.07,0.03,-0.03
0.03,-0.00,0.97,0.07,0.02,-0.03
0.03,0.00,0.97,0.07,0.03,-0.03
0.03,-0.01,0.98,0.07,0.03,-0.03
0.03,0.00,0.98,0.07,0.03,-0.03
0.03,0.00,0.97,0.07,0.03,-0.03
0.03,-0.00,0.98,0.07,0.03,-0.03
0.03,-0.00,0.98,0.07,0.03,-0.03
0.03,0.00,0.97,0.07,0.03,-0.03
0.03,0.01,0.97,0.07,0.03,-0.03
0.03,-0.00,0.98,0.07,0.03,-0.03
0.02,-0.00,0.98,0.07,0.03,-0.03
0.03,0.00,0.97,0.07,0.03,-0.03
0.03,-0.00,0.98,0.07,0.03,-0.03
0.03,0.00,0.97,0.07,0.03,-0.03
0.03,-0.00,0.97,0.07,0.03,-0.03
0.03,0.00,0.97,0.07,0.03,-0.03
0.03,0.00,0.98,0.07,0.02,-0.03
0.03,0.00,0.97,0.07,0.03,-0.03
0.03,0.00,0.97,0.07,0.03,-0.03
0.03,0.00,0.98,0.07,0.03,-0.03
0.03,-0.00,0.97,0.07,0.03,-0.03
0.03,0.00,0.97,0.07,0.03,-0.03
0.03,0.00,0.97,0.07,0.03,-0.03
0.03,0.00,0.97,0.07,0.02,-0.03
0.03,0.00,0.98,0.07,0.03,-0.03
0.03,0.00,0.97,0.07,0.03,-0.03
0.03,0.00,0.97,0.07,0.03,-0.03
0.03,0.00,0.97,0.07,0.02,-0.03
0.03,-0.00,0.97,0.07,0.03,-0.03
0.03,-0.00,0.97,0.07,0.02,-0.03
0.03,-0.00,0.97,0.07,0.03,-0.03
0.03,0.00,0.97,0.07,0.03,-0.03
0.03,0.00,0.97,0.07,0.03,-0.03
0.03,0.00,0.97,0.07,0.02,-0.03
0.03,-0.00,0.97,0.07,0.03,-0.03
0.03,0.00,0.97,0.07,0.03,-0.03
0.03,0.00,0.98,0.07,0.03,-0.03
0.03,0.00,0.97,0.07,0.03,-0.03
0.03,0.00,0.96,0.07,0.02,-0.03
0.03,-0.00,0.97,0.07,0.03,-0.03
0.03,0.00,0.98,0.07,0.03,-0.03
0.03,-0.00,0.97,0.07,0.03,-0.03
0.03,0.00,0.98,0.07,0.03,-0.03
0.03,0.00,0.98,0.07,0.02,-0.03
0.03,0.00,0.97,0.07,0.03,-0.03
0.03,0.00,0.98,0.07,0.02,-0.03
0.03,-0.00,0.97,0.07,0.02,-0.03
0.03,0.00,0.97,0.07,0.03,-0.03
0.03,0.00,0.97,0.07,0.03,-0.03
0.03,0.00,0.98,0.07,0.03,-0.03
0.03,-0.00,0.97,0.07,0.02,-0.03
0.02,0.00,0.97,0.07,0.03,-0.03
0.03,0.00,0.97,0.07,0.03,-0.03
0.02,-0.00,0.97,0.07,0.03,-0.03
0.03,-0.00,0.98,0.07,0.03,-0.03
0.03,0.00,0.97,0.07,0.03,-0.03
0.03,0.00,0.97,0.07,0.03,-0.03
0.03,0.00,0.97,0.07,0.03,-0.03
0.02,0.00,0.98,0.07,0.03,-0.03
0.03,-0.00,0.97,0.07,0.03,-0.03
0.03,-0.00,0.98,0.07,0.03,-0.03
0.03,-0.00,0.98,0.07,0.03,-0.03
0.02,-0.00,0.97,0.07,0.03,-0.03
0.03,0.00,0.97,0.07,0.03,-0.03
0.03,-0.00,0.98,0.07,0.03,-0.03
0.03,0.00,0.97,0.07,0.03,-0.03
0.03,0.00,0.97,0.07,0.03,-0.03
0.03,-0.00,0.97,0.07,0.02,-0.03
0.03,0.00,0.97,0.07,0.02,-0.03
0.03,0.00,0.97,0.07,0.03,-0.03
0.03,0.00,0.97,0.07,0.02,-0.03
0.03,0.00,0.98,0.07,0.03,-0.03
0.03,-0.00,0.97,0.07,0.03,-0.03
0.03,0.00,0.98,0.07,0.03,-0.03
0.03,-0.00,0.97,0.07,0.03,-0.03
0.02,0.00,0.98,0.07,0.03,-0.03
0.03,-0.00,0.98,0.07,0.03,-0.03
0.02,0.00,0.97,0.07,0.03,-0.03
0.03,0.00,0.98,0.07,0.03,-0.03
0.03,0.00,0.98,0.07,0.03,-0.03
0.02,0.00,0.98,0.07,0.03,-0.03
0.03,0.00,0.98,0.07,0.02,-0.03
0.03,0.00,0.98,0.07,0.03,-0.03
0.03,0.00,0.97,0.07,0.03,-0.03
0.02,-0.00,0.98,0.07,0.02,-0.03
0.03,0.00,0.97,0.07,0.03,-0.03
0.03,0.00,0.98,0.07,0.03,-0.03
0.03,-0.00,0.97,0.07,0.03,-0.03
0.03,-0.00,0.97,0.07,0.03,-0.03
0.03,0.00,0.97,0.07,0.03,-0.03
0.03,-0.00,0.97,0.07,0.03,-0.03
0.03,-0.00,0.97,0.07,0.02,-0.03
0.03,-0.00,0.98,0.07,0.03,-0.03
0.03,-0.00,0.97,0.07,0.03,-0.03
0.03,0.00,0.98,0.07,0.03,-0.03
0.03,0.00,0.97,0.07,0.03,-0.03
0.03,-0.00,0.97,0.07,0.03,-0.03
0.03,0.00,0.97,0.07,0.03,-0.03
0.03,0.00,0.97,0.07,0.02,-0.03
0.03,0.00,0.97,0.07,0.03,-0.03
0.03,-0.00,0.98,0.07,0.03,-0.03
0.03,-0.00,0.97,0.07,0.02,-0.03
0.03,0.00,0.97,0.07,0.03,-0.03
0.03,0.00,0.98,0.07,0.03,-0.03
0.03,-0.00,0.98,0.07,0.02,-0.03
0.03,0.00,0.98,0.07,0.03,-0.03
0.03,0.00,0.98,0.07,0.03,-0.03
0.03,0.00,0.97,0.07,0.02,-0.03
0.03,-0.00,0.98,0.07,0.03,-0.03
0.03,0.00,0.98,0.07,0.03,-0.03
0.03,-0.00,0.98,0.07,0.03,-0.03
0.03,0.00,0.98,0.07,0.03,-0.03
0.03,0.00,0.97,0.07,0.03,-0.03
0.03,0.00,0.98,0.07,0.02,-0.03
0.03,0.00,0.97,0.07,0.02,-0.03
0.03,0.00,0.97,0.07,0.03,-0.03
0.02,0.00,0.98,0.07,0.03,-0.03
0.03,-0.00,0.97,0.07,0.03,-0.03
0.03,-0.00,0.97,0.07,0.03,-0.03
0.04,0.00,0.97,0.07,0.02,-0.03
0.03,-0.00,0.97,0.07,0.02,-0.03
0.03,-0.00,0.97,0.07,0.03,-0.03
0.03,0.00,0.97,0.07,0.03,-0.03
0.04,-0.01,0.98,0.07,0.03,-0.03
0.05,0.02,0.98,0.07,0.02,-0.03
0.05,0.01,0.93,0.07,0.02,-0.03
0.04,-0.01,0.98,0.07,0.02,-0.03
0.03,-0.01,0.98,0.07,0.03,-0.03
0.03,-0.00,0.97,0.07,0.03,-0.03
0.01,0.00,1.02,0.07,0.03,-0.03
0.02,-0.01,0.96,0.07,0.03,-0.03
0.03,-0.00,0.97,0.07,0.03,-0.03
0.03,-0.00,0.98,0.07,0.03,-0.03
0.03,0.00,0.97,0.07,0.03,-0.03
0.03,0.00,0.97,0.07,0.02,-0.03
0.03,0.00,0.97,0.07,0.03,-0.03
0.03,0.00,0.97,0.07,0.02,-0.03
0.03,0.00,0.97,0.07,0.02,-0.03
0.03,0.00,0.97,0.07,0.03,-0.03
0.03,-0.00,0.98,0.07,0.03,-0.03
0.02,-0.00,0.98,0.07,0.03,-0.03
0.03,-0.00,0.97,0.07,0.03,-0.03
0.03,0.00,0.98,0.07,0.03,-0.03
0.03,-0.00,0.97,0.07,0.03,-0.03
0.03,0.00,0.97,0.07,0.02,-0.03
0.03,-0.00,0.97,0.07,0.02,-0.03
0.03,-0.00,0.97,0.07,0.03,-0.03
0.03,-0.00,0.97,0.07,0.03,-0.03
0.03,-0.00,0.98,0.07,0.03,-0.03
0.03,0.00,0.97,0.07,0.03,-0.03
0.03,-0.00,0.98,0.07,0.03,-0.03
0.03,0.00,0.98,0.07,0.03,-0.03
0.03,0.00,0.97,0.07,0.03,-0.03
0.02,0.00,0.97,0.07,0.03,-0.03
0.03,0.00,0.97,0.07,0.03,-0.03
0.03,0.00,0.97,0.07,0.02,-0.03
0.03,0.00,0.98,0.07,0.03,-0.03
0.03,-0.00,0.97,0.07,0.03,-0.03
0.02,0.00,0.99,0.07,0.03,-0.03
0.03,-0.00,0.97,0.07,0.03,-0.03
0.03,0.00,0.98,0.07,0.03,-0.03
0.03,-0.00,0.97,0.07,0.03,-0.03
0.03,0.00,0.97,0.07,0.03,-0.03
0.03,0.00,0.98,0.07,0.03,-0.03
0.03,0.00,0.97,0.07,0.03,-0.03
0.03,0.00,0.97,0.07,0.02,-0.03
0.03,-0.00,0.97,0.07,0.03,-0.03
0.03,0.00,0.97,0.07,0.02,-0.03
0.03,-0.00,0.97,0.07,0.03,-0.03
0.03,-0.00,0.97,0.07,0.03,-0.03
0.02,0.00,0.98,0.07,0.03,-0.03
0.03,-0.00,0.97,0.07,0.03,-0.03
0.03,0.00,0.97,0.07,0.02,-0.03
0.03,0.00,0.97,0.07,0.02,-0.03
0.03,0.01,0.97,0.07,0.02,-0.03
0.03,0.00,0.97,0.07,0.02,-0.03
0.03,-0.00,0.97,0.07,0.02,-0.03
0.03,0.00,0.98,0.07,0.03,-0.03
0.03,0.00,0.97,0.07,0.03,-0.03
0.03,-0.00,0.98,0.07,0.03,-0.03
0.02,0.00,0.97,0.07,0.02,-0.03
0.03,0.00,0.97,0.07,0.03,-0.03
0.03,-0.00,0.98,0.07,0.03,-0.03
0.03,0.00,0.97,0.07,0.02,-0.03
0.03,-0.00,0.98,0.07,0.03,-0.03
0.03,0.00,0.97,0.07,0.02,-0.03
0.02,0.00,0.97,0.07,0.03,-0.03
0.03,-0.00,0.98,0.07,0.03,-0.03
0.03,0.00,0.97,0.07,0.02,-0.03
0.03,0.00,0.97,0.07,0.02,-0.03
0.03,0.00,0.98,0.07,0.03,-0.03
0.03,-0.00,0.97,0.07,0.03,-0.03
0.03,0.00,0.97,0.07,0.03,-0.03
0.03,0.00,0.98,0.07,0.03,-0.03
0.03,-0.00,0.98,0.07,0.03,-0.03
0.03,-0.00,0.98,0.07,0.02,-0.03
0.03,-0.00,0.97,0.07,0.03,-0.03
0.02,-0.00,0.98,0.07,0.03,-0.03
0.03,0.00,0.98,0.07,0.03,-0.03
0.02,0.00,0.98,0.07,0.03,-0.03
0.03,0.00,0.97,0.07,0.02,-0.03
0.03,-0.00,0.97,0.07,0.03,-0.03
0.03,0.00,0.96,0.07,0.02,-0.03
0.03,0.00,0.98,0.07,0.03,-0.03
0.03,0.01,0.97,0.07,0.03,-0.03
0.03,0.00,0.98,0.07,0.03,-0.03
0.03,0.00,0.98,0.07,0.03,-0.03
0.03,0.00,0.97,0.07,0.03,-0.03
0.03,-0.00,0.98,0.07,0.03,-0.03
0.03,-0.00,0.97,0.07,0.03,-0.03
0.03,0.01,0.97,0.07,0.03,-0.03
0.03,0.00,0.98,0.07,0.03,-0.03
0.02,0.00,0.97,0.07,0.03,-0.03
0.03,0.00,0.97,0.07,0.02,-0.03
0.03,-0.00,0.97,0.07,0.03,-0.03
0.03,0.00,0.97,0.07,0.03,-0.03
0.02,0.00,0.98,0.07,0.03,-0.03
0.03,-0.00,0.98,0.07,0.03,-0.03
0.03,0.00,0.98,0.07,0.03,-0.03
0.03,-0.00,0.97,0.07,0.03,-0.03
0.03,0.00,0.98,0.07,0.02,-0.03
0.03,0.00,0.97,0.07,0.02,-0.03
0.03,0.00,0.97,0.07,0.03,-0.03
0.03,0.00,0.97,0.07,0.03,-0.03
0.03,0.00,0.97,0.07,0.03,-0.03
0.03,0.00,0.98,0.07,0.02,-0.03
0.03,0.00,0.97,0.07,0.03,-0.03
0.03,0.00,0.97,0.07,0.03,-0.03
0.03,0.00,0.97,0.07,0.03,-0.03
0.03,0.00,0.98,0.07,0.03,-0.03
0.03,0.00,0.98,0.07,0.03,-0.03
0.02,0.00,0.97,0.07,0.03,-0.03
0.03,0.00,0.97,0.07,0.03,-0.03
0.03,0.00,0.97,0.07,0.02,-0.03
0.03,0.00,0.98,0.07,0.03,-0.03
0.03,-0.00,0.98,0.07,0.03,-0.03
0.03,0.00,0.98,0.07,0.02,-0.03
0.03,0.00,0.97,0.07,0.03,-0.03
0.03,-0.00,0.97,0.07,0.03,-0.03
0.03,0.00,0.98,0.07,0.03,-0.03
0.03,0.00,0.98,0.07,0.03,-0.03
0.03,0.00,0.98,0.07,0.02,-0.03
0.03,-0.00,0.98,0.07,0.03,-0.03
0.02,0.00,0.97,0.07,0.03,-0.03
0.03,-0.01,0.97,0.07,0.03,-0.03
0.03,0.00,0.97,0.07,0.03,-0.03
0.03,0.00,0.97,0.07,0.03,-0.03
0.03,0.00,0.97,0.07,0.02,-0.03
0.03,0.00,0.97,0.07,0.03,-0.03
0.03,-0.00,0.97,0.07,0.03,-0.03
0.02,0.00,0.97,0.07,0.03,-0.03
0.03,-0.00,0.97,0.07,0.03,-0.03
0.02,-0.00,0.97,0.07,0.03,-0.03
0.03,0.00,0.97,0.07,0.03,-0.03
0.03,0.00,0.98,0.07,0.03,-0.03
0.03,0.00,0.97,0.07,0.03,-0.03
0.02,0.00,0.97,0.07,0.03,-0.03
0.02,0.00,0.98,0.07,0.03,-0.03
0.02,0.01,0.97,0.07,0.02,-0.03
0.03,0.01,0.98,0.07,0.03,-0.03
0.03,-0.00,0.97,0.07,0.03,-0.03
0.03,0.00,0.97,0.07,0.03,-0.03
0.03,0.00,0.97,0.07,0.03,-0.03
0.03,0.00,0.97,0.07,0.02,-0.03
0.03,0.00,0.97,0.07,0.03,-0.03
0.02,0.00,0.98,0.07,0.03,-0.03
0.03,-0.00,0.96,0.07,0.03,-0.03
0.02,0.00,0.97,0.07,0.03,-0.03
0.03,-0.00,0.96,0.07,0.02,-0.03
0.03,0.00,0.97,0.07,0.02,-0.03
0.03,-0.00,0.97,0.07,0.02,-0.03
0.03,-0.00,0.97,0.07,0.02,-0.03
0.03,0.00,0.97,0.07,0.03,-0.03
0.03,0.00,0.97,0.07,0.02,-0.03
0.03,-0.00,0.97,0.07,0.03,-0.03
0.03,0.00,0.98,0.07,0.03,-0.03
0.03,0.00,0.97,0.07,0.03,-0.03
0.03,0.00,0.97,0.07,0.03,-0.03
0.03,0.00,0.97,0.07,0.03,-0.03
0.02,0.00,0.98,0.07,0.03,-0.03
0.03,0.00,0.97,0.07,0.03,-0.03
0.03,-0.00,0.97,0.07,0.03,-0.03
0.03,0.00,0.98,0.07,0.03,-0.03
0.03,0.00,0.98,0.07,0.03,-0.03
0.02,0.00,0.97,0.07,0.03,-0.03
0.03,0.00,0.97,0.07,0.03,-0.03
0.03,-0.00,0.98,0.07,0.03,-0.03
0.03,-0.00,0.97,0.07,0.03,-0.03
0.03,-0.00,0.98,0.07,0.03,-0.03
0.03,0.00,0.98,0.07,0.03,-0.03
0.02,-0.00,0.97,0.07,0.03,-0.03
0.03,-0.00,0.97,0.07,0.03,-0.03
0.03,0.00,0.97,0.07,0.02,-0.03
0.03,0.00,0.97,0.07,0.03,-0.03
0.03,-0.00,0.97,0.07,0.03,-0.03
0.03,-0.00,0.98,0.07,0.03,-0.03
0.03,0.00,0.97,0.07,0.03,-0.03
0.03,0.00,0.98,0.07,0.03,-0.03
0.03,0.00,0.97,0.07,0.03,-0.03
0.03,0.00,0.97,0.07,0.03,-0.03
0.03,0.00,0.97,0.07,0.02,-0.03
0.03,0.00,0.97,0.07,0.03,-0.03
0.03,0.00,0.97,0.07,0.02,-0.03
0.03,-0.00,0.98,0.07,0.03,-0.03
0.03,-0.00,0.97,0.07,0.03,-0.03
0.03,-0.00,0.97,0.07,0.03,-0.03
0.03,0.00,0.97,0.07,0.03,-0.03
0.03,-0.00,0.98,0.07,0.02,-0.03
0.03,0.00,0.97,0.07,0.03,-0.03
0.03,0.00,0.97,0.07,0.03,-0.03
0.03,-0.00,0.97,0.07,0.03,-0.03
0.02,0.00,0.97,0.07,0.03,-0.03
0.02,0.00,0.98,0.07,0.03,-0.03
0.02,-0.00,0.98,0.07,0.03,-0.03
0.03,-0.00,0.97,0.07,0.03,-0.03
0.03,0.00,0.98,0.07,0.03,-0.03
0.03,0.00,0.97,0.07,0.03,-0.03
0.03,0.00,0.97,0.07,0.02,-0.03
0.03,0.00,0.97,0.07,0.03,-0.03
0.03,0.00,0.98,0.07,0.03,-0.03
0.03,-0.00,0.98,0.07,0.02,-0.03
0.03,0.00,0.97,0.07,0.03,-0.03
0.02,-0.00,0.98,0.07,0.03,-0.03
0.03,0.00,0.98,0.07,0.02,-0.03
0.03,0.00,0.99,0.07,0.03,-0.03
0.03,-0.00,0.98,0.07,0.03,-0.03
0.03,-0.00,0.98,0.07,0.03,-0.03
0.03,-0.00,0.97,0.07,0.03,-0.03
0.03,0.00,0.97,0.07,0.03,-0.03
0.03,0.00,0.97,0.07,0.03,-0.03
0.02,0.00,0.97,0.07,0.03,-0.03
0.03,-0.00,0.97,0.07,0.03,-0.03
0.03,-0.00,0.97,0.07,0.03,-0.03
0.03,-0.00,0.97,0.07,0.03,-0.03
0.03,-0.00,0.97,0.07,0.03,-0.03
0.03,0.00,0.97,0.07,0.02,-0.03
0.03,0.00,0.98,0.07,0.02,-0.03
0.02,-0.00,0.98,0.07,0.03,-0.03
0.03,-0.00,0.97,0.07,0.03,-0.03
0.03,0.00,0.97,0.07,0.03,-0.03
0.03,0.00,0.97,0.07,0.03,-0.03
0.01,-0.00,0.97,0.07,0.03,-0.03
0.02,-0.01,0.96,0.07,0.03,-0.03
0.02,-0.00,0.97,0.07,0.03,-0.03
0.02,-0.01,0.98,0.07,0.03,-0.03
0.02,0.00,0.97,0.07,0.03,-0.03
0.03,-0.01,0.97,0.07,0.03,-0.03
0.03,0.00,0.97,0.07,0.03,-0.03
0.03,-0.01,0.97,0.07,0.03,-0.03
0.03,-0.00,0.97,0.07,0.02,-0.03
0.03,0.00,0.97,0.07,0.02,-0.03
0.03,-0.00,0.98,0.07,0.02,-0.03
0.02,0.00,0.97,0.07,0.03,-0.03
0.03,-0.00,0.97,0.07,0.03,-0.03
0.03,0.00,0.98,0.07,0.03,-0.03
0.03,-0.00,0.98,0.07,0.02,-0.03
0.03,0.00,0.98,0.07,0.03,-0.03
0.03,-0.00,0.98,0.07,0.03,-0.03
0.03,0.00,0.98,0.07,0.03,-0.03
0.02,-0.00,0.98,0.07,0.03,-0.03
0.03,0.00,0.98,0.07,0.03,-0.03
0.03,0.01,0.98,0.07,0.02,-0.03
0.03,0.00,0.97,0.07,0.03,-0.03
0.02,0.01,0.98,0.07,0.03,-0.03
0.03,-0.00,0.97,0.07,0.03,-0.03
0.03,0.00,0.98,0.07,0.03,-0.03
0.03,-0.01,0.98,0.07,0.03,-0.03
0.03,0.00,0.98,0.07,0.03,-0.03
0.03,-0.00,0.97,0.07,0.03,-0.03
0.03,0.00,0.97,0.07,0.03,-0.03
0.04,0.00,0.97,0.07,0.02,-0.03
0.02,0.00,0.98,0.07,0.03,-0.03
0.04,0.01,0.94,0.07,0.02,-0.03
0.03,0.00,0.98,0.07,0.03,-0.03
0.03,0.00,0.97,0.07,0.03,-0.03
0.03,-0.00,0.98,0.07,0.02,-0.03
0.02,-0.00,0.97,0.07,0.03,-0.03
0.02,0.00,0.99,0.07,0.03,-0.03
0.05,0.01,0.91,0.07,0.01,-0.03
0.03,0.01,0.96,0.07,0.02,-0.03
0.03,0.00,0.97,0.07,0.03,-0.03
0.03,-0.00,0.98,0.07,0.03,-0.03
0.03,-0.01,0.98,0.07,0.03,-0.03
0.02,0.01,0.97,0.07,0.03,-0.03
0.03,-0.00,0.98,0.07,0.02,-0.03
0.03,0.00,0.98,0.07,0.03,-0.03
0.03,-0.00,0.97,0.07,0.03,-0.03
0.03,0.00,0.97,0.07,0.02,-0.03
0.03,0.00,0.97,0.07,0.02,-0.03
0.03,-0.00,0.97,0.07,0.03,-0.03
0.03,0.01,0.98,0.07,0.03,-0.03
0.03,-0.00,0.96,0.07,0.02,-0.03
-0.07,0.02,1.24,0.07,0.06,-0.03
0.00,-0.01,1.01,0.07,0.03,-0.02
0.01,-0.01,1.03,0.07,0.04,-0.03
0.02,0.01,0.97,0.07,0.02,-0.03
0.03,0.00,0.97,0.07,0.02,-0.03
0.03,0.01,0.97,0.07,0.02,-0.03
0.03,-0.00,0.97,0.07,0.03,-0.03
0.03,-0.00,0.97,0.07,0.03,-0.03
0.03,-0.00,0.97,0.07,0.03,-0.03
0.03,-0.00,0.98,0.07,0.03,-0.03
0.02,0.00,0.97,0.07,0.03,-0.03
0.03,0.00,0.98,0.07,0.03,-0.03
0.03,0.00,0.97,0.07,0.03,-0.03
0.03,-0.00,0.97,0.07,0.03,-0.03
0.03,0.00,0.97,0.07,0.03,-0.03
0.02,0.00,0.98,0.07,0.03,-0.03
0.03,-0.00,0.97,0.07,0.03,-0.03
0.03,0.00,0.98,0.07,0.03,-0.03
0.03,0.00,0.98,0.07,0.02,-0.03
0.03,0.00,0.97,0.07,0.02,-0.03
0.03,-0.00,0.98,0.07,0.03,-0.03
0.03,-0.00,0.98,0.07,0.02,-0.03
0.03,0.00,0.97,0.07,0.03,-0.03
0.03,-0.00,0.98,0.07,0.03,-0.03
0.02,0.00,0.98,0.07,0.03,-0.03
0.03,-0.00,0.97,0.07,0.02,-0.03
0.03,0.00,0.97,0.07,0.03,-0.03
0.03,0.00,0.98,0.07,0.02,-0.03
0.03,-0.00,0.97,0.07,0.03,-0.03
0.02,0.00,0.98,0.07,0.03,-0.03
0.03,0.00,0.97,0.07,0.03,-0.03
0.02,0.00,0.98,0.07,0.03,-0.03
0.03,-0.00,0.98,0.07,0.03,-0.03
0.03,-0.00,0.97,0.07,0.02,-0.03
0.03,0.00,0.97,0.07,0.03,-0.03
0.03,0.00,0.97,0.07,0.03,-0.03
0.03,0.00,0.98,0.07,0.03,-0.03
0.03,-0.00,0.98,0.07,0.03,-0.03
0.03,0.00,0.97,0.07,0.03,-0.03
0.03,0.00,0.98,0.07,0.03,-0.03
0.03,0.00,0.97,0.07,0.03,-0.03
0.03,-0.00,0.97,0.07,0.03,-0.03
0.03,0.00,0.97,0.07,0.03,-0.03
0.03,0.00,0.97,0.07,0.03,-0.03
0.03,0.00,0.98,0.07,0.03,-0.03
0.03,-0.00,0.97,0.07,0.03,-0.03
0.03,0.00,0.97,0.07,0.03,-0.03
0.03,0.00,0.97,0.07,0.03,-0.03
0.03,0.00,0.97,0.07,0.03,-0.03
0.03,-0.00,0.98,0.07,0.03,-0.03
0.03,0.00,0.98,0.07,0.03,-0.03
0.03,-0.00,0.98,0.07,0.03,-0.03
0.03,0.00,0.97,0.07,0.03,-0.03
0.03,0.00,0.97,0.07,0.02,-0.03
0.03,0.00,0.98,0.07,0.02,-0.03
0.03,0.00,0.97,0.07,0.03,-0.03
0.03,-0.00,0.97,0.07,0.03,-0.03
0.03,0.00,0.97,0.07,0.03,-0.03
0.03,-0.00,0.98,0.07,0.02,-0.03
0.03,0.00,0.98,0.07,0.03,-0.03
0.03,-0.00,0.98,0.07,0.03,-0.03
0.03,0.00,0.98,0.07,0.03,-0.03
0.03,0.00,0.98,0.07,0.03,-0.03
0.03,0.01,0.97,0.07,0.03,-0.03
0.03,0.00,0.97,0.07,0.03,-0.03
0.03,0.00,0.97,0.07,0.03,-0.03
0.03,-0.00,0.98,0.07,0.02,-0.03
0.03,0.00,0.98,0.07,0.03,-0.03
0.03,0.00,0.97,0.07,0.03,-0.03
0.03,-0.00,0.98,0.07,0.03,-0.03
0.03,0.00,0.97,0.07,0.03,-0.03
0.03,-0.00,0.98,0.07,0.03,-0.03
0.03,0.00,0.97,0.07,0.03,-0.03
0.03,-0.00,0.97,0.07,0.03,-0.03
0.03,0.00,0.98,0.07,0.02,-0.03
0.03,-0.00,0.96,0.07,0.02,-0.03
0.03,0.00,0.97,0.07,0.03,-0.03
0.03,0.00,0.98,0.07,0.03,-0.03
0.03,-0.00,0.97,0.07,0.03,-0.03
0.03,0.00,0.98,0.07,0.03,-0.03
0.03,-0.00,0.98,0.07,0.03,-0.03
0.03,0.00,0.98,0.07,0.03,-0.03
0.03,0.00,0.97,0.07,0.03,-0.03
0.03,0.00,0.97,0.07,0.02,-0.03
0.03,0.00,0.97,0.07,0.03,-0.03
0.03,0.00,0.97,0.07,0.03,-0.03
0.03,-0.00,0.97,0.07,0.02,-0.03
0.03,-0.00,0.97,0.07,0.02,-0.03
0.02,0.00,0.97,0.07,0.02,-0.03
0.03,-0.00,0.98,0.07,0.03,-0.03
0.03,0.00,0.98,0.07,0.02,-0.03
0.03,0.00,0.97,0.07,0.02,-0.03
0.03,0.00,0.98,0.07,0.03,-0.03
0.03,0.00,0.97,0.07,0.03,-0.03
0.03,-0.00,0.97,0.07,0.03,-0.03
0.03,-0.00,0.98,0.07,0.02,-0.03
0.03,-0.00,0.97,0.07,0.03,-0.03
0.03,0.00,0.98,0.07,0.02,-0.03
0.02,-0.00,0.97,0.07,0.02,-0.03
0.03,0.00,0.96,0.07,0.02,-0.03
0.02,0.00,0.98,0.07,0.03,-0.03
0.03,0.00,0.98,0.07,0.03,-0.03
0.03,0.00,0.98,0.07,0.03,-0.03
0.03,0.00,0.97,0.07,0.03,-0.03
0.03,0.01,0.98,0.07,0.03,-0.03
0.03,0.00,0.98,0.07,0.03,-0.03
0.03,-0.00,0.98,0.07,0.03,-0.03
0.03,-0.00,0.98,0.07,0.03,-0.03
0.03,0.00,0.98,0.07,0.02,-0.03
0.03,0.00,0.97,0.07,0.03,-0.03
0.03,0.00,0.98,0.07,0.03,-0.03
0.03,-0.00,0.97,0.07,0.03,-0.03
0.03,-0.00,0.98,0.07,0.03,-0.03
0.03,0.00,0.98,0.07,0.03,-0.03
0.03,0.00,0.97,0.07,0.02,-0.03
0.03,0.00,0.97,0.07,0.03,-0.03
0.03,-0.01,0.97,0.07,0.02,-0.03
0.03,0.00,0.97,0.07,0.02,-0.03
0.02,-0.00,0.97,0.07,0.03,-0.03
0.03,0.00,0.97,0.07,0.03,-0.03
0.02,-0.00,0.98,0.07,0.02,-0.03
0.03,-0.00,0.97,0.07,0.03,-0.03
0.03,-0.00,0.97,0.07,0.03,-0.03
0.03,0.00,0.96,0.07,0.02,-0.03
0.03,-0.00,0.98,0.07,0.02,-0.03
0.03,-0.00,0.97,0.07,0.03,-0.03
0.03,0.01,0.98,0.07,0.02,-0.03
0.04,-0.00,0.97,0.07,0.02,-0.03
0.03,0.00,0.97,0.07,0.02,-0.03
0.03,0.00,0.97,0.07,0.02,-0.03
0.02,0.00,0.97,0.07,0.03,-0.03
0.03,0.00,0.97,0.07,0.03,-0.03
0.03,0.00,0.98,0.07,0.03,-0.03
0.03,0.00,0.97,0.07,0.03,-0.03
0.03,-0.00,0.98,0.07,0.03,-0.03
0.02,0.00,0.98,0.07,0.03,-0.03
0.03,-0.00,0.97,0.07,0.03,-0.03
0.03,-0.00,0.97,0.07,0.03,-0.03
0.02,-0.00,0.97,0.07,0.03,-0.03
0.03,-0.00,0.97,0.07,0.03,-0.03
0.03,0.00,0.98,0.07,0.02,-0.03
0.03,0.00,0.97,0.07,0.02,-0.03
0.03,0.00,0.98,0.07,0.02,-0.03
0.03,-0.00,0.97,0.07,0.03,-0.03
0.03,0.00,0.97,0.07,0.03,-0.03
0.03,0.00,0.97,0.07,0.02,-0.03
0.03,-0.00,0.98,0.07,0.02,-0.03
0.03,0.00,0.97,0.07,0.02,-0.03
0.03,-0.00,0.97,0.07,0.03,-0.03
0.03,0.00,0.97,0.07,0.03,-0.03
0.03,-0.00,0.98,0.07,0.03,-0.03
0.03,0.00,0.98,0.07,0.03,-0.03
0.03,0.00,0.98,0.07,0.03,-0.03
0.03,0.00,0.98,0.07,0.02,-0.03
0.03,0.00,0.97,0.07,0.03,-0.03
0.03,-0.00,0.98,0.07,0.03,-0.03
0.03,-0.00,0.97,0.07,0.03,-0.03
0.03,-0.00,0.97,0.07,0.02,-0.03
0.03,-0.00,0.98,0.07,0.02,-0.03
0.03,0.00,0.98,0.07,0.03,-0.03
0.03,-0.00,0.97,0.07,0.02,-0.03
0.03,0.00,0.97,0.07,0.03,-0.03
0.03,0.00,0.98,0.07,0.03,-0.03
0.03,-0.00,0.98,0.07,0.02,-0.03
0.03,0.00,0.97,0.07,0.03,-0.03
0.03,-0.00,0.97,0.07,0.03,-0.03
0.03,0.00,0.97,0.07,0.03,-0.03
0.03,0.00,0.98,0.07,0.03,-0.03
0.03,-0.00,0.97,0.07,0.03,-0.03
0.03,0.00,0.98,0.07,0.03,-0.03
0.03,0.00,0.97,0.07,0.03,-0.03
0.03,-0.00,0.97,0.07,0.03,-0.03
0.02,0.01,0.98,0.07,0.02,-0.03
0.03,-0.00,0.98,0.07,0.03,-0.03
0.03,0.00,0.98,0.07,0.03,-0.03
0.03,-0.00,0.98,0.07,0.03,-0.03
0.03,-0.00,0.97,0.07,0.03,-0.03
0.03,0.00,0.97,0.07,0.03,-0.03
0.02,-0.00,0.97,0.07,0.03,-0.03
0.02,0.00,0.98,0.07,0.03,-0.03
0.03,0.00,0.96,0.07,0.03,-0.03
0.03,0.00,0.97,0.07,0.03,-0.03
0.03,-0.00,0.97,0.07,0.03,-0.03
0.03,0.01,0.97,0.07,0.03,-0.03
0.03,-0.00,0.97,0.07,0.02,-0.03
0.03,-0.00,0.97,0.07,0.03,-0.03
0.03,0.00,0.96,0.07,0.02,-0.03
0.03,-0.00,0.98,0.07,0.03,-0.03
0.02,0.00,0.97,0.07,0.03,-0.03
0.03,-0.00,0.98,0.07,0.03,-0.03
0.03,0.00,0.97,0.07,0.03,-0.03
0.03,-0.00,0.97,0.07,0.03,-0.03
0.03,-0.00,0.98,0.07,0.02,-0.03
0.03,0.00,0.97,0.07,0.03,-0.03
0.03,0.00,0.97,0.07,0.02,-0.03
0.03,-0.00,0.98,0.07,0.03,-0.03
0.03,-0.00,0.98,0.07,0.03,-0.03
0.03,0.00,0.97,0.07,0.02,-0.03
0.03,-0.00,0.97,0.07,0.03,-0.03
0.02,0.00,0.98,0.07,0.03,-0.03
0.03,-0.00,0.97,0.07,0.03,-0.03
0.03,0.01,0.97,0.07,0.02,-0.03
0.03,0.00,0.97,0.07,0.03,-0.03
0.03,0.01,0.97,0.07,0.02,-0.03
0.03,0.00,0.97,0.07,0.03,-0.03
0.03,0.00,0.97,0.07,0.03,-0.03
0.03,0.00,0.97,0.07,0.03,-0.03
0.02,0.00,0.97,0.07,0.03,-0.03
0.03,-0.00,0.98,0.07,0.03,-0.03
0.03,0.00,0.97,0.07,0.03,-0.03
0.03,0.00,0.97,0.07,0.02,-0.03
0.03,0.00,0.98,0.07,0.03,-0.03
0.03,-0.00,0.97,0.07,0.02,-0.03
0.03,0.00,0.97,0.07,0.02,-0.03
0.03,0.00,0.97,0.07,0.02,-0.03
0.03,0.00,0.98,0.07,0.03,-0.03
0.03,-0.00,0.97,0.07,0.03,-0.03
0.03,0.00,0.97,0.07,0.03,-0.03
0.02,-0.00,0.98,0.07,0.03,-0.03
0.02,0.00,0.96,0.07,0.03,-0.03
0.03,-0.00,0.97,0.07,0.03,-0.03
0.03,0.00,0.98,0.07,0.03,-0.03
0.03,0.00,0.97,0.07,0.03,-0.03
0.03,0.00,0.98,0.07,0.03,-0.03
0.03,0.00,0.98,0.07,0.03,-0.03
0.03,0.00,0.97,0.07,0.03,-0.03
0.03,-0.00,0.97,0.07,0.03,-0.03
0.02,0.00,0.99,0.07,0.03,-0.03
0.03,-0.00,0.97,0.07,0.02,-0.03
0.03,-0.00,0.97,0.07,0.03,-0.03
0.03,0.00,0.97,0.07,0.03,-0.03
0.03,0.00,0.97,0.07,0.02,-0.03
0.03,-0.00,0.97,0.07,0.03,-0.03
0.03,-0.00,0.98,0.07,0.03,-0.03
0.03,0.00,0.98,0.07,0.03,-0.03
0.03,0.00,0.98,0.07,0.03,-0.03
0.02,-0.00,0.98,0.07,0.03,-0.03
0.03,0.00,0.98,0.07,0.02,-0.03
0.03,-0.00,0.97,0.07,0.03,-0.03
0.03,0.00,0.97,0.07,0.03,-0.03
0.03,-0.00,0.97,0.07,0.03,-0.03
0.03,0.00,0.97,0.07,0.02,-0.03
0.03,0.00,0.98,0.07,0.03,-0.03
0.03,0.00,0.98,0.07,0.03,-0.03
0.03,-0.00,0.97,0.07,0.03,-0.03
0.03,-0.00,0.97,0.07,0.03,-0.03
0.03,0.00,0.98,0.07,0.03,-0.03
0.03,-0.00,0.97,0.07,0.03,-0.03
0.02,0.00,0.98,0.07,0.03,-0.03
0.03,0.00,0.98,0.07,0.03,-0.03
0.02,-0.00,0.97,0.07,0.03,-0.03
0.03,-0.00,0.98,0.07,0.03,-0.03
0.02,-0.00,0.98,0.07,0.03,-0.03
0.03,-0.00,0.97,0.07,0.03,-0.03
0.03,-0.00,0.98,0.07,0.03,-0.03
0.02,0.00,0.97,0.07,0.03,-0.03
0.03,0.00,0.98,0.07,0.03,-0.03
0.03,0.00,0.98,0.07,0.03,-0.03
0.03,-0.00,0.97,0.07,0.03,-0.03
0.03,0.00,0.98,0.07,0.03,-0.03
0.03,-0.00,0.98,0.07,0.03,-0.03
0.03,0.00,0.98,0.07,0.03,-0.03
0.03,-0.00,0.97,0.07,0.03,-0.03
0.03,-0.00,0.97,0.07,0.02,-0.03
0.02,0.00,0.98,0.07,0.03,-0.03
0.03,-0.00,0.98,0.07,0.03,-0.03
0.02,-0.00,0.97,0.07,0.03,-0.03
0.03,-0.00,0.98,0.07,0.03,-0.03
0.03,0.00,0.98,0.07,0.03,-0.03
0.03,-0.00,0.97,0.07,0.03,-0.03
0.03,0.00,0.98,0.07,0.03,-0.03
0.03,-0.00,0.98,0.07,0.02,-0.03
0.03,0.00,0.97,0.07,0.03,-0.03
0.03,-0.00,0.97,0.07,0.03,-0.03
0.03,0.00,0.98,0.07,0.03,-0.03
0.03,-0.01,0.97,0.07,0.03,-0.03
0.03,0.00,0.97,0.07,0.02,-0.03
0.03,-0.00,0.97,0.07,0.03,-0.03
0.03,-0.00,0.97,0.07,0.03,-0.03
0.03,0.00,0.97,0.07,0.03,-0.03
0.02,-0.00,0.98,0.07,0.03,-0.03
0.03,0.00,0.98,0.07,0.03,-0.03
0.03,0.00,0.97,0.07,0.03,-0.03
0.03,0.00,0.97,0.07,0.02,-0.03
0.03,0.00,0.97,0.07,0.03,-0.03
0.02,0.00,0.97,0.07,0.02,-0.03
0.02,0.00,0.98,0.07,0.03,-0.03
0.03,0.00,0.98,0.07,0.03,-0.03
0.03,-0.00,0.98,0.07,0.03,-0.03
0.03,0.00,0.97,0.07,0.02,-0.03
0.03,-0.00,0.98,0.07,0.03,-0.03
0.03,0.00,0.97,0.07,0.03,-0.03
0.02,0.00,0.98,0.07,0.03,-0.03
0.03,-0.00,0.97,0.07,0.02,-0.03
0.03,0.00,0.98,0.07,0.03,-0.03
0.03,0.00,0.97,0.07,0.03,-0.03
0.03,-0.00,0.97,0.07,0.03,-0.03
0.03,-0.00,0.98,0.07,0.03,-0.03
0.03,0.00,0.97,0.07,0.03,-0.03
0.03,-0.00,0.97,0.07,0.03,-0.02
0.03,-0.00,0.98,0.07,0.02,-0.03
0.03,0.00,0.97,0.07,0.02,-0.03
0.03,-0.00,0.97,0.07,0.03,-0.03
0.03,-0.00,0.98,0.07,0.03,-0.03
0.04,0.03,0.99,0.08,0.02,-0.03
0.04,0.00,0.99,0.07,0.02,-0.03
0.03,0.00,0.98,0.07,0.03,-0.03
0.03,0.01,0.97,0.07,0.03,-0.03
0.03,-0.01,0.97,0.07,0.03,-0.03
0.01,0.01,0.97,0.07,0.03,-0.03
0.03,-0.01,0.97,0.07,0.03,-0.03
0.02,0.00,0.98,0.07,0.03,-0.03
0.03,-0.01,0.97,0.07,0.02,-0.03
0.02,0.01,0.98,0.07,0.03,-0.03
0.03,0.00,0.98,0.07,0.03,-0.03
0.03,0.00,0.97,0.07,0.03,-0.03
0.03,0.00,0.97,0.07,0.03,-0.03
0.03,-0.00,0.97,0.07,0.03,-0.03
0.03,0.01,0.97,0.07,0.03,-0.03
0.02,-0.01,0.97,0.07,0.03,-0.03
0.03,0.00,0.97,0.07,0.03,-0.03
0.03,-0.00,0.97,0.07,0.02,-0.03
0.03,-0.00,0.97,0.07,0.02,-0.03
0.03,0.00,0.97,0.07,0.03,-0.03
0.03,0.00,0.97,0.07,0.02,-0.03
0.03,0.00,0.97,0.07,0.02,-0.03
0.03,-0.00,0.98,0.07,0.03,-0.03
0.03,0.00,0.98,0.07,0.02,-0.03
0.03,-0.00,0.97,0.07,0.03,-0.03
0.02,0.00,0.97,0.07,0.03,-0.03
0.03,0.00,0.97,0.07,0.02,-0.03
0.03,0.00,0.97,0.07,0.02,-0.03
0.03,-0.00,0.97,0.07,0.03,-0.03
0.03,-0.00,0.97,0.07,0.03,-0.03
0.02,-0.00,0.97,0.07,0.03,-0.03
0.03,-0.01,0.97,0.07,0.03,-0.03
0.03,0.00,0.98,0.07,0.03,-0.03
0.03,-0.00,0.98,0.07,0.03,-0.03
0.03,0.00,0.97,0.07,0.02,-0.03
0.03,-0.00,0.97,0.07,0.02,-0.03
0.03,0.00,0.97,0.07,0.02,-0.03
0.03,0.00,0.97,0.07,0.02,-0.03
0.03,0.00,0.98,0.07,0.02,-0.03
0.03,0.00,0.98,0.07,0.03,-0.03
0.02,-0.00,0.97,0.07,0.02,-0.03
0.03,-0.00,0.97,0.07,0.02,-0.03
0.03,0.00,0.98,0.07,0.03,-0.03
0.02,0.00,0.97,0.07,0.03,-0.03
0.03,-0.00,0.98,0.07,0.03,-0.03
0.03,0.00,0.98,0.07,0.03,-0.03
0.03,-0.00,0.97,0.07,0.03,-0.03
0.03,0.00,0.97,0.07,0.03,-0.03
0.03,-0.00,0.98,0.07,0.02,-0.03
0.03,0.00,0.97,0.07,0.03,-0.03
0.03,-0.00,0.97,0.07,0.02,-0.03
0.03,-0.00,0.97,0.07,0.03,-0.03
0.03,-0.00,0.97,0.07,0.02,-0.03
0.03,0.00,0.97,0.07,0.03,-0.03
0.03,-0.00,0.98,0.07,0.03,-0.03
0.02,0.00,0.97,0.07,0.03,-0.03
0.03,-0.00,0.97,0.07,0.03,-0.03
0.03,-0.00,0.97,0.07,0.02,-0.03
0.03,0.00,0.97,0.07,0.03,-0.03
0.03,0.00,0.97,0.07,0.03,-0.03
0.03,0.00,0.97,0.07,0.02,-0.03
0.03,-0.00,0.98,0.07,0.02,-0.03
0.03,0.00,0.97,0.07,0.02,-0.03
0.03,-0.00,0.98,0.07,0.03,-0.03
0.03,0.01,0.98,0.07,0.03,-0.03
0.03,0.00,0.96,0.07,0.03,-0.03
0.03,0.00,0.97,0.07,0.03,-0.03
0.03,0.00,0.97,0.07,0.03,-0.03
0.02,0.00,0.98,0.07,0.03,-0.03
0.03,0.00,0.98,0.07,0.02,-0.03
0.03,0.00,0.97,0.07,0.03,-0.03
0.03,0.00,0.97,0.07,0.03,-0.03
0.03,-0.00,0.97,0.07,0.03,-0.03
0.03,0.00,0.98,0.07,0.03,-0.03
0.03,-0.00,0.98,0.07,0.03,-0.03
0.03,0.00,0.97,0.07,0.02,-0.03
0.03,-0.00,0.97,0.07,0.03,-0.03
0.03,-0.00,0.97,0.07,0.03,-0.03
0.03,0.00,0.97,0.07,0.03,-0.03
0.03,-0.00,0.97,0.07,0.03,-0.03
0.03,-0.00,0.97,0.07,0.03,-0.03
0.03,0.00,0.98,0.07,0.03,-0.03
0.03,0.00,0.98,0.07,0.03,-0.03
0.03,0.00,0.98,0.07,0.03,-0.03
0.03,0.00,0.98,0.07,0.03,-0.03
0.03,-0.00,0.97,0.07,0.03,-0.03
0.02,0.00,0.97,0.07,0.03,-0.03
0.03,-0.00,0.98,0.07,0.03,-0.03
0.03,-0.00,0.98,0.07,0.03,-0.03
0.03,0.00,0.97,0.07,0.03,-0.03
0.03,0.00,0.97,0.07,0.03,-0.03
0.03,0.00,0.98,0.07,0.02,-0.03
0.03,0.00,0.98,0.07,0.03,-0.03
0.02,0.00,0.97,0.07,0.02,-0.03
0.02,0.00,0.97,0.07,0.03,-0.03
0.03,0.00,0.97,0.07,0.03,-0.03
0.03,-0.00,0.98,0.07,0.03,-0.03
0.03,-0.00,0.98,0.07,0.03,-0.03
0.03,-0.00,0.97,0.07,0.03,-0.03
0.03,0.00,0.98,0.07,0.03,-0.03
0.03,0.00,0.97,0.07,0.03,-0.03
0.03,-0.00,0.97,0.07,0.02,-0.03
0.03,-0.00,0.97,0.07,0.03,-0.03
0.03,0.00,0.97,0.07,0.02,-0.03
0.03,0.00,0.97,0.07,0.02,-0.03
0.03,0.00,0.98,0.07,0.03,-0.03
0.03,0.00,0.98,0.07,0.02,-0.03
0.03,-0.00,0.97,0.07,0.03,-0.03
0.03,0.00,0.97,0.07,0.03,-0.03
0.03,0.00,0.97,0.07,0.03,-0.03
0.03,0.00,0.97,0.07,0.03,-0.03
0.03,-0.00,0.98,0.07,0.03,-0.03
0.03,-0.00,0.97,0.07,0.03,-0.03
0.03,0.00,0.97,0.07,0.03,-0.03
0.03,0.00,0.97,0.07,0.03,-0.03
0.03,0.00,0.98,0.07,0.02,-0.03
0.02,-0.00,0.98,0.07,0.03,-0.03
0.03,-0.00,0.97,0.07,0.02,-0.03
0.03,0.01,0.97,0.07,0.03,-0.03
0.02,-0.00,0.97,0.07,0.03,-0.03
0.03,-0.00,0.97,0.07,0.03,-0.03
0.03,0.00,0.97,0.07,0.03,-0.03
0.03,0.00,0.97,0.07,0.03,-0.03
0.03,0.00,0.97,0.07,0.03,-0.03
0.03,-0.00,0.98,0.07,0.03,-0.03
0.02,0.00,0.97,0.07,0.03,-0.03
0.03,0.00,0.97,0.07,0.03,-0.03
0.03,0.00,0.97,0.07,0.03,-0.03
0.03,-0.00,0.98,0.07,0.03,-0.03
0.03,0.01,0.98,0.07,0.03,-0.03
0.03,0.00,0.97,0.07,0.03,-0.03
0.03,0.00,0.97,0.07,0.02,-0.03
0.02,0.00,0.97,0.07,0.03,-0.03
0.03,-0.00,0.98,0.07,0.03,-0.03
0.03,0.01,0.98,0.07,0.03,-0.03
0.03,-0.00,0.98,0.07,0.03,-0.03
0.03,0.00,0.97,0.07,0.03,-0.03
0.03,-0.00,0.97,0.07,0.03,-0.03
0.02,0.00,0.98,0.07,0.03,-0.03
0.03,-0.00,0.97,0.07,0.02,-0.03
0.03,-0.00,0.98,0.07,0.03,-0.03
0.03,-0.00,0.97,0.07,0.03,-0.03
0.03,0.00,0.97,0.07,0.03,-0.03
0.03,0.00,0.97,0.07,0.03,-0.03
0.03,-0.00,0.97,0.07,0.03,-0.03
0.03,-0.00,0.97,0.07,0.02,-0.03
0.03,-0.00,0.97,0.07,0.02,-0.03
0.03,0.00,0.97,0.07,0.03,-0.03
0.03,0.00,0.97,0.07,0.03,-0.03
0.03,0.00,0.97,0.07,0.03,-0.03
0.03,0.00,0.97,0.07,0.03,-0.03
0.03,0.00,0.97,0.07,0.03,-0.03
0.02,0.00,0.97,0.07,0.03,-0.03
0.03,-0.00,0.97,0.07,0.03,-0.03
0.03,-0.00,0.98,0.07,0.03,-0.03
0.03,0.00,0.98,0.07,0.03,-0.03
0.03,0.00,0.98,0.07,0.03,-0.03
0.03,0.00,0.98,0.07,0.03,-0.03
0.02,-0.00,0.97,0.07,0.02,-0.03
0.03,-0.00,0.97,0.07,0.03,-0.03
0.03,0.00,0.97,0.07,0.03,-0.03
0.02,0.00,0.97,0.07,0.03,-0.03
0.03,0.00,0.97,0.07,0.03,-0.03
0.03,0.00,0.98,0.07,0.03,-0.03
0.03,0.00,0.98,0.07,0.03,-0.03
0.03,0.00,0.97,0.07,0.03,-0.03
0.03,0.00,0.98,0.07,0.03,-0.03
0.02,-0.00,0.97,0.07,0.03,-0.03
0.03,-0.00,0.98,0.07,0.03,-0.03
0.03,0.01,0.98,0.07,0.02,-0.03
0.03,-0.00,0.97,0.07,0.03,-0.03
0.03,0.00,0.97,0.07,0.02,-0.03
0.03,0.01,0.98,0.08,0.02,-0.03
0.03,0.00,0.98,0.07,0.02,-0.03
0.03,-0.00,0.97,0.07,0.02,-0.03
0.02,0.01,0.97,0.07,0.03,-0.03
0.04,-0.00,0.97,0.07,0.02,-0.03
0.03,0.01,0.97,0.07,0.03,-0.03
0.03,-0.01,0.98,0.07,0.02,-0.03
0.03,-0.00,0.98,0.07,0.03,-0.03
0.03,0.00,0.98,0.07,0.02,-0.03
0.03,-0.00,0.97,0.07,0.03,-0.03
0.03,0.00,0.97,0.07,0.03,-0.03
0.03,-0.00,0.98,0.07,0.03,-0.03
0.03,0.00,0.97,0.07,0.02,-0.03
0.03,0.00,0.97,0.07,0.03,-0.03
0.03,-0.00,0.97,0.07,0.03,-0.03
0.02,0.00,0.98,0.07,0.03,-0.03
0.03,-0.00,0.97,0.07,0.03,-0.03
0.03,-0.00,0.97,0.07,0.03,-0.03
0.03,0.00,0.98,0.07,0.03,-0.03
0.03,-0.00,0.98,0.07,0.03,-0.03
0.03,-0.00,0.97,0.07,0.03,-0.03
0.03,-0.00,0.97,0.07,0.03,-0.03
0.03,0.00,0.97,0.07,0.03,-0.03
0.02,-0.00,0.97,0.07,0.02,-0.03
0.03,-0.00,0.98,0.07,0.03,-0.03
0.03,0.00,0.97,0.07,0.03,-0.03
0.03,-0.00,0.98,0.07,0.03,-0.03
0.03,-0.00,0.97,0.07,0.03,-0.03
0.03,0.01,0.97,0.07,0.03,-0.03
0.03,-0.00,0.97,0.07,0.03,-0.03
0.03,0.00,0.97,0.07,0.03,-0.03
0.03,0.00,0.97,0.07,0.03,-0.03
0.03,0.00,0.97,0.07,0.03,-0.03
0.02,-0.00,0.98,0.07,0.03,-0.03
0.03,0.00,0.97,0.07,0.02,-0.03
0.02,0.00,0.97,0.07,0.03,-0.03
0.03,-0.00,0.97,0.07,0.02,-0.03
0.03,0.00,0.97,0.07,0.02,-0.03
0.03,0.00,0.97,0.07,0.02,-0.03
0.03,0.00,0.97,0.07,0.02,-0.03
0.03,-0.00,0.98,0.07,0.03,-0.03
0.03,0.00,0.97,0.07,0.03,-0.03
0.02,-0.00,0.97,0.07,0.03,-0.03
0.03,0.00,0.96,0.07,0.03,-0.03
0.03,0.00,0.98,0.07,0.03,-0.03
0.03,-0.00,0.98,0.07,0.03,-0.03
0.02,0.00,0.98,0.07,0.03,-0.03
0.03,0.00,0.97,0.07,0.03,-0.03
0.03,-0.00,0.98,0.07,0.03,-0.03
0.03,-0.00,0.97,0.07,0.02,-0.03
0.03,0.00,0.97,0.07,0.03,-0.03
0.03,-0.00,0.97,0.07,0.03,-0.03
0.03,-0.00,0.99,0.07,0.03,-0.03
0.03,0.01,0.98,0.07,0.02,-0.03
0.03,-0.00,0.98,0.07,0.03,-0.03
0.06,0.03,0.98,0.08,0.02,-0.03
0.05,0.01,0.96,0.07,0.02,-0.03
0.04,0.01,0.97,0.07,0.02,-0.03
0.02,0.01,1.01,0.07,0.03,-0.03
0.04,-0.01,0.97,0.07,0.03,-0.03
0.00,-0.00,1.00,0.07,0.03,-0.03
0.03,-0.01,0.98,0.07,0.03,-0.03
0.02,0.01,0.97,0.07,0.02,-0.03
0.03,0.00,0.97,0.07,0.02,-0.03
0.03,-0.00,0.97,0.07,0.03,-0.03
0.04,0.01,0.98,0.07,0.03,-0.03
0.02,-0.01,0.98,0.07,0.03,-0.02
0.03,0.01,0.97,0.07,0.03,-0.03
0.04,0.00,0.96,0.07,0.02,-0.03
0.03,0.01,0.96,0.07,0.02,-0.03
0.03,0.02,0.97,0.07,0.02,-0.03
0.04,-0.00,0.97,0.07,0.02,-0.03
0.02,0.01,0.98,0.07,0.03,-0.03
0.03,-0.01,0.97,0.07,0.03,-0.03
0.03,0.00,0.97,0.07,0.03,-0.03
0.03,0.00,0.98,0.07,0.02,-0.03
0.03,-0.00,0.98,0.07,0.03,-0.03
0.03,-0.00,0.98,0.07,0.02,-0.03
0.03,0.00,0.97,0.07,0.03,-0.03
0.03,0.00,0.97,0.07,0.02,-0.03
0.03,0.00,0.97,0.07,0.03,-0.03
0.03,0.00,0.97,0.07,0.03,-0.03
0.03,0.00,0.97,0.07,0.02,-0.03
0.03,0.00,0.98,0.07,0.03,-0.03
0.02,-0.02,0.98,0.07,0.03,-0.03
0.02,0.01,0.96,0.06,0.04,-0.03
0.03,-0.02,0.95,0.07,0.03,-0.03
0.01,0.01,0.98,0.07,0.03,-0.03
0.03,-0.01,0.96,0.07,0.02,-0.03
0.03,-0.01,0.97,0.07,0.03,-0.03
0.02,-0.00,0.97,0.07,0.03,-0.03
0.03,-0.00,0.97,0.07,0.02,-0.03
0.03,0.01,0.99,0.07,0.03,-0.03
0.03,-0.01,0.97,0.07,0.02,-0.03
0.02,0.01,0.98,0.07,0.03,-0.03
0.03,-0.00,0.98,0.07,0.03,-0.03
0.03,-0.00,0.97,0.07,0.03,-0.03
-0.01,0.00,1.00,0.07,0.03,-0.03
0.03,-0.01,0.98,0.07,0.03,-0.03
0.03,0.00,0.98,0.07,0.02,-0.03
0.03,-0.00,0.98,0.07,0.02,-0.03
0.03,0.01,0.97,0.07,0.03,-0.03
0.03,0.00,0.97,0.07,0.03,-0.03
0.03,0.00,0.97,0.07,0.02,-0.03
0.03,0.00,0.98,0.07,0.02,-0.03
0.03,-0.00,0.98,0.07,0.03,-0.03
0.03,0.01,0.98,0.07,0.02,-0.03
0.03,0.00,0.98,0.07,0.03,-0.03
0.03,0.00,0.98,0.07,0.02,-0.03
0.02,0.00,0.97,0.07,0.03,-0.03
0.05,0.01,0.97,0.07,0.02,-0.03
0.03,-0.01,0.96,0.07,0.03,-0.03
0.02,-0.00,0.97,0.07,0.03,-0.02
0.03,-0.00,0.97,0.07,0.02,-0.03
0.03,0.00,0.97,0.07,0.03,-0.03
0.06,0.02,0.98,0.08,0.01,-0.04
0.03,0.01,1.00,0.08,0.02,-0.03
0.04,0.01,0.98,0.08,0.02,-0.03
0.03,0.01,0.97,0.07,0.02,-0.03
0.04,0.00,0.98,0.07,0.03,-0.03
0.02,0.01,0.97,0.07,0.02,-0.03
0.02,-0.00,0.98,0.07,0.03,-0.03
0.02,0.00,0.97,0.07,0.03,-0.03
0.03,-0.00,0.98,0.07,0.02,-0.03
0.03,0.00,0.97,0.07,0.02,-0.03
0.03,-0.00,0.97,0.07,0.03,-0.03
0.03,-0.00,0.97,0.07,0.03,-0.03
0.03,-0.00,0.98,0.07,0.03,-0.03
0.03,-0.00,0.98,0.07,0.03,-0.03
0.02,-0.00,0.98,0.07,0.03,-0.03
0.03,0.00,0.97,0.07,0.03,-0.03
0.02,-0.00,0.97,0.07,0.03,-0.03
0.03,-0.00,0.98,0.07,0.02,-0.03
0.03,0.00,0.97,0.07,0.03,-0.03
0.03,-0.00,0.97,0.07,0.03,-0.03
